# XDI/1.0 Athena/0.9.26
# Element.edge:                  L3
# Element.symbol:                Pt
# Column.1:                      energy eV
# Column.2:                      xmu
# Column.3:                      bkg
# Column.4:                      pre_edge
# Column.5:                      post_edge
# Column.6:                      der
# Column.7:                      sec
# Column.8:                      i0
# Column.9:                      chi(e)
# Athena.e0:                     11564.429
# Athena.eshift:                 0.000
# Athena.rbkg:                   1.0
# Athena.importance:             1
# Athena.standard:               None
# Athena.bkg_kweight:            2
# Athena.edge_step:              0.1520370
# Athena.fixed_step:             no
# Athena.pre_edge_range:         -150 -30
# Athena.pre_edge_line:          13.561085 - 0.00116043 * E
# Athena.normalization_range:    50 300
# Athena.post_edge_polynomial:   74.300045 - 0.011559 * E + 4.46150508e-007 * E^2 + 0 * E^3
# Athena.spline_range_energy:    0.000 1027.484
# Athena.clamps:                 0 24
# Athena.spline_range_k:         0.000 16.422
# Athena.kweight:                2
# Athena.window:                 hanning
# Athena.phase_correction:       no
# Athena.k_range:                2 6.734
# Athena.dk:                     1
# Athena.r_range:                1 3
# Athena.dr:                     0.0
# Athena.window:                 hanning
# Athena.plot_multiplier:        1
# Athena.y_offset:               0
# ///
#------------------------
#   e         xmu       bkg       pre_edge       post_edge       der       sec       i0        chie
  11349.987       0.39074098       0.39074098       0.39016356       0.57978658      -0.91780459E-03  -0.13729695E-04    45097.143        0.0000000
  11359.987       0.38156294       0.38156294       0.37855921       0.56551737      -0.10551015E-02  -0.13790954E-04    44296.538        0.0000000
  11369.987       0.36963895       0.36963895       0.36695486       0.55133740      -0.11936237E-02  -0.74793276E-05    46168.846        0.0000000
  11379.987       0.35769046       0.35769046       0.35535051       0.53724666      -0.12046881E-02  -0.68701065E-06    46337.692        0.0000000
  11389.987       0.34554519       0.34554519       0.34374616       0.52324514      -0.12073639E-02  -0.17425045E-06    46825.385        0.0000000
  11399.987       0.33354319       0.33354319       0.33214181       0.50933286      -0.12081731E-02   0.23574738E-06    47228.846        0.0000000
  11409.987       0.32138173       0.32138173       0.32053746       0.49550981      -0.12026489E-02   0.75130296E-06    47292.308        0.0000000
  11419.987       0.30949021       0.30949021       0.30893311       0.48177598      -0.11931470E-02   0.16171693E-06    48376.923        0.0000000
  11429.987       0.29751879       0.29751879       0.29732876       0.46813139      -0.11994146E-02   0.16127559E-06    48880.000        0.0000000
  11439.987       0.28550192       0.28550192       0.28572441       0.45457603      -0.11899215E-02   0.83638843E-06    49166.538        0.0000000
  11449.987       0.27372036       0.27372036       0.27412006       0.44110989      -0.11826868E-02   0.94248266E-06    49368.462        0.0000000
  11459.987       0.26184818       0.26184818       0.26251571       0.42773299      -0.11710719E-02   0.15096362E-05    49919.231        0.0000000
  11469.987       0.25029892       0.25029892       0.25091136       0.41444532      -0.11524941E-02   0.11992687E-05    50280.000        0.0000000
  11479.987       0.23879830       0.23879830       0.23930702       0.40124688      -0.11470865E-02   0.37437471E-06    50736.154        0.0000000
  11489.987       0.22735719       0.22735719       0.22770267       0.38813766      -0.11450066E-02  -0.17619686E-06    51084.800        0.0000000
  11499.987       0.21589816       0.21589816       0.21609832       0.37511768      -0.11506104E-02   0.25875074E-06    51622.692        0.0000000
  11509.987       0.20434498       0.20434498       0.20449397       0.36218693      -0.11398316E-02   0.31367615E-05    51724.231        0.0000000
  11519.987       0.19310153       0.19310153       0.19288962       0.34934541      -0.10878752E-02   0.98751959E-05    52049.600        0.0000000
  11529.987       0.18258748       0.18258748       0.18128527       0.33659311      -0.94232768E-03   0.99328553E-05    52353.600        0.0000000
  11539.987       0.17425498       0.17425498       0.16968092       0.32393005      -0.88921811E-03  -0.12536667E-04    52419.444        0.0000000
  11544.000       0.17012686       0.17012686       0.16502409       0.31887345      -0.11180040E-02  -0.18469153E-03    52298.333        0.0000000
  11544.400       0.16932123       0.16932123       0.16455992       0.31837022      -0.17042618E-02  -0.16326941E-03    52075.734        0.0000000
  11544.800       0.16876345       0.16876345       0.16409575       0.31786713      -0.12486195E-02   0.10769843E-02    52099.072        0.0000000
  11545.200       0.16832233       0.16832233       0.16363157       0.31736418      -0.84267443E-03   0.13781618E-02    52159.673        0.0000000
  11545.600       0.16808931       0.16808931       0.16316740       0.31686137      -0.14609008E-03   0.64767511E-03    52035.533        0.0000000
  11546.000       0.16820546       0.16820546       0.16270322       0.31635871      -0.32453434E-03  -0.54708585E-03    52058.004        0.0000000
  11546.400       0.16782969       0.16782969       0.16223905       0.31585619      -0.58375876E-03  -0.43186482E-03    51780.964        0.0000000
  11546.800       0.16773845       0.16773845       0.16177488       0.31535381      -0.67002620E-03   0.52642420E-03    52123.744        0.0000000
  11547.200       0.16729367       0.16729367       0.16131070       0.31485158      -0.16261939E-03  -0.37894989E-04    52013.390        0.0000000
  11547.600       0.16760836       0.16760836       0.16084653       0.31434949      -0.70034219E-03  -0.56189895E-03    52483.240        0.0000000
  11548.000       0.16673339       0.16673339       0.16038235       0.31384754      -0.61213855E-03   0.10239890E-02    52410.532        0.0000000
  11548.400       0.16711865       0.16711865       0.15991818       0.31334573       0.11884898E-03  -0.39670774E-04    52218.623        0.0000000
  11548.800       0.16682847       0.16682847       0.15945401       0.31284407      -0.64387517E-03  -0.44091425E-03    51926.754        0.0000000
  11549.200       0.16660355       0.16660355       0.15898983       0.31234255      -0.23388242E-03   0.11383729E-03    52004.836        0.0000000
  11549.600       0.16664137       0.16664137       0.15852566       0.31184117      -0.55280534E-03  -0.39801668E-04    52195.492        0.0000000
  11550.000       0.16616130       0.16616130       0.15806148       0.31133993      -0.26572376E-03   0.10704920E-02    52374.232        0.0000000
  11550.400       0.16642879       0.16642879       0.15759731       0.31083884       0.30358826E-03  -0.15478997E-03    52282.588        0.0000000
  11550.800       0.16640417       0.16640417       0.15713314       0.31033789      -0.38955573E-03  -0.10548409E-02    52581.555        0.0000000
  11551.200       0.16611714       0.16611714       0.15666896       0.30983708      -0.54028446E-03   0.48488612E-03    52596.888        0.0000000
  11551.600       0.16597195       0.16597195       0.15620479       0.30933642      -0.16468351E-05   0.16963910E-02    52610.318        0.0000000
  11552.000       0.16611582       0.16611582       0.15574061       0.30883590       0.81682832E-03   0.17062511E-03    52524.642        0.0000000
  11552.400       0.16662541       0.16662541       0.15527644       0.30833552       0.13485325E-03  -0.13535343E-02    52645.662        0.0000000
  11552.800       0.16622371       0.16622371       0.15481227       0.30783528      -0.26599911E-03   0.70621591E-03    52699.672        0.0000000
  11553.200       0.16641261       0.16641261       0.15434809       0.30733519       0.69982598E-03   0.93952019E-03    52735.300        0.0000000
  11553.600       0.16678357       0.16678357       0.15388392       0.30683524       0.48561704E-03  -0.87388667E-04    52710.518        0.0000000
  11554.000       0.16680110       0.16680110       0.15341974       0.30633543       0.62991505E-03   0.10508432E-02    52544.770        0.0000000
  11554.400       0.16728750       0.16728750       0.15295557       0.30583576       0.13262916E-02   0.50696906E-03    52342.981        0.0000000
  11554.800       0.16786214       0.16786214       0.15249140       0.30533624       0.10354903E-02  -0.14881155E-03    52310.218        0.0000000
  11555.200       0.16811589       0.16811589       0.15202722       0.30483686       0.12072424E-02   0.52928212E-03    52429.765        0.0000000
  11555.600       0.16882793       0.16882793       0.15156305       0.30433763       0.14589160E-02   0.36153679E-03    52574.935        0.0000000
  11556.000       0.16928302       0.16928302       0.15109887       0.30383853       0.14964718E-02   0.85105365E-03    52708.403        0.0000000
  11556.400       0.17002511       0.17002511       0.15063470       0.30333958       0.21397589E-02   0.11153672E-02    52801.997        0.0000000
  11556.800       0.17099483       0.17099483       0.15017053       0.30284077       0.23887656E-02   0.75793635E-03    52588.294        0.0000000
  11557.200       0.17193612       0.17193612       0.14970635       0.30234211       0.27461080E-02   0.11232358E-02    52653.643        0.0000000
  11557.600       0.17319172       0.17319172       0.14924218       0.30184358       0.32873542E-02   0.99880174E-03    52637.008        0.0000000
  11558.000       0.17456600       0.17456600       0.14877800       0.30134520       0.35451494E-02   0.54008585E-03    52188.421        0.0000000
  11558.400       0.17602784       0.17602784       0.14831383       0.30084697       0.37194229E-02   0.13343601E-02    52236.180        0.0000000
  11558.800       0.17754154       0.17754154       0.14784966       0.30034887       0.46126374E-02   0.21253437E-02    52579.033        0.0000000
  11559.200       0.17971795       0.17971795       0.14738548       0.29985092       0.54196979E-02   0.20786987E-02    52510.703        0.0000000
  11559.600       0.18187730       0.18187730       0.14692131       0.29935311       0.62755964E-02   0.24581803E-02    52404.301        0.0000000
  11560.000       0.18473842       0.18473842       0.14645713       0.29885545       0.73862421E-02   0.21630447E-02    52274.472        0.0000000
  11560.400       0.18778629       0.18778629       0.14599296       0.29835792       0.80060322E-02   0.24680648E-02    52503.314        0.0000000
  11560.800       0.19114325       0.19114325       0.14552879       0.29786054       0.93606939E-02   0.44141572E-02    52571.106        0.0000000
  11561.200       0.19527485       0.19527485       0.14506461       0.29736330       0.11537358E-01   0.52122610E-02    52587.566        0.0000000
  11561.600       0.20037314       0.20037314       0.14460044       0.29686621       0.13530503E-01   0.63889892E-02    52573.425        0.0000000
  11562.000       0.20609925       0.20609925       0.14413626       0.29636926       0.16648549E-01   0.76238315E-02    52549.578        0.0000000
  11562.400       0.21369198       0.21369198       0.14367209       0.29587245       0.19629568E-01   0.79816226E-02    52520.000        0.0000000
  11562.800       0.22180290       0.22180290       0.14320792       0.29537578       0.23033847E-01   0.11621665E-01    52668.590        0.0000000
  11563.200       0.23211905       0.23211905       0.14274374       0.29487926       0.28926900E-01   0.13266072E-01    52740.000        0.0000000
  11563.600       0.24494442       0.24494442       0.14227957       0.29438287       0.33646705E-01   0.10451230E-01    52622.261        0.0000000
  11564.000       0.25903642       0.25903642       0.14181539       0.29388664       0.37287883E-01   0.11673506E-01    52542.996        0.0000000
  11564.400       0.27477473       0.27477473       0.14135122       0.29339054       0.42985510E-01   0.15838270E-01    52594.946        0.0000000
  11564.800       0.29342483       -18097.898       0.14088705       0.29289459       0.49958499E-01   0.18314292E-01    52545.391        119038.07
  11565.200       0.31474153       -17796.559       0.14042287       0.29239878       0.57636944E-01   0.21074121E-01    52541.752        117056.20
  11565.600       0.33953438       -17498.591       0.13995870       0.29190311       0.66817796E-01   0.17447591E-01    52687.081        115096.53
  11566.000       0.36819577       -17203.975       0.13949452       0.29140759       0.71595017E-01   0.39979928E-02    52924.491        113158.93
  11566.400       0.39681039       -16912.693       0.13903035       0.29091220       0.70016190E-01  -0.26678383E-02    53011.140        111243.25
  11566.800       0.42420872       -16624.725       0.13856618       0.29041696       0.69460746E-01  -0.57832702E-02    52883.434        109349.36
  11567.200       0.45237899       -16340.052       0.13810200       0.28992187       0.65389574E-01  -0.26638860E-01    52762.850        107477.15
  11567.600       0.47652038       -16058.655       0.13763783       0.28942691       0.48149658E-01  -0.52613499E-01    52777.180        105626.47
  11568.000       0.49089872       -15780.515       0.13717366       0.28893210       0.23298775E-01  -0.62160881E-01    52971.264        103797.14
  11568.400       0.49515940       -15505.614       0.13670948       0.28843743      -0.15790468E-02  -0.61390817E-01    53130.437        101989.05
  11568.800       0.48963548       -15233.932       0.13624531       0.28794291      -0.25813879E-01  -0.56956865E-01    53044.625        100202.07
  11569.200       0.47450830       -14965.450       0.13578113       0.28744853      -0.47144539E-01  -0.45330661E-01    52890.230        98436.070
  11569.600       0.45191985       -14700.150       0.13531696       0.28695429      -0.62078408E-01  -0.25769829E-01    52714.547        96690.950
  11570.000       0.42484557       -14438.012       0.13485279       0.28646019      -0.67760402E-01  -0.49991960E-02    52777.857        94966.601
  11570.400       0.39771153       -14179.018       0.13438861       0.28596624      -0.66077765E-01   0.82824952E-02    52699.210        93262.926
  11570.800       0.37198336       -13923.148       0.13392444       0.28547242      -0.61134406E-01   0.12062093E-01    52720.401        91579.812
  11571.200       0.34880400       -13670.383       0.13346026       0.28497876      -0.56428091E-01   0.12970928E-01    52659.753        89917.140
  11571.600       0.32684088       -13420.705       0.13299609       0.28448523      -0.50757664E-01   0.18936227E-01    52413.880        88274.777
  11572.000       0.30819787       -13174.095       0.13253192       0.28399185      -0.41279109E-01   0.22077176E-01    52229.959        86652.612
  11572.400       0.29381760       -12930.533       0.13206774       0.28349861      -0.33095923E-01   0.17961236E-01    52341.397        85050.527
  11572.800       0.28172113       -12690.001       0.13160357       0.28300551      -0.26910120E-01   0.14273202E-01    52402.530        83468.383
  11573.200       0.27228950       -12452.479       0.13113939       0.28251255      -0.21677361E-01   0.11833932E-01    52626.126        81906.059
  11573.600       0.26437925       -12217.949       0.13067522       0.28201974      -0.17442975E-01   0.94325335E-02    52861.436        80363.422
  11574.000       0.25833512       -11986.392       0.13021105       0.28152707      -0.14131334E-01   0.82496117E-02    52809.227        78840.349
  11574.400       0.25307418       -11757.788       0.12974687       0.28103455      -0.10843285E-01   0.81781819E-02    52775.243        77336.709
  11574.800       0.24966049       -11532.119       0.12928270       0.28054216      -0.75887890E-02   0.67559392E-02    52821.734        75852.384
  11575.200       0.24700315       -11309.366       0.12881852       0.28004992      -0.54385339E-02   0.54371830E-02    52656.998        74387.241
  11575.600       0.24530967       -11089.510       0.12835435       0.27955782      -0.32390426E-02   0.37047926E-02    52802.080        72941.158
  11576.000       0.24441191       -10872.531       0.12789018       0.27906587      -0.24746999E-02   0.18847467E-02    52438.262        71514.009
  11576.400       0.24332991       -10658.411       0.12742600       0.27857405      -0.17312452E-02   0.22565341E-02    52540.810        70105.662
  11576.800       0.24302692       -10447.131       0.12696183       0.27808238      -0.66947263E-03   0.10413771E-02    52475.237        68715.998
  11577.200       0.24279433       -10238.672       0.12649765       0.27759086      -0.89814351E-03   0.29778377E-03    52725.443        67344.889
  11577.600       0.24230840       -10033.015       0.12603348       0.27709947      -0.43124561E-03   0.10339484E-02    52840.542        65992.208
  11578.000       0.24244933       -9830.1407       0.12556931       0.27660823      -0.70984761E-04   0.10642129E-02    52677.502        64657.834
  11578.400       0.24225161       -9630.0305       0.12510513       0.27611713       0.42012470E-03   0.43955139E-03    52707.950        63341.639
  11578.800       0.24278543       -9432.6652       0.12464096       0.27562618       0.28065635E-03  -0.12780051E-02    52608.306        62043.502
  11579.200       0.24247614       -9238.0259       0.12417678       0.27513536      -0.60227934E-03  -0.10125728E-02    52625.795        60763.290
  11579.600       0.24230361       -9046.0936       0.12371261       0.27464469      -0.52940188E-03  -0.47214988E-03    52605.275        59500.884
  11580.000       0.24205262       -8856.8495       0.12324844       0.27415416      -0.97999925E-03  -0.62050480E-03    52787.406        58256.158
  11580.400       0.24151961       -8670.2744       0.12278426       0.27366378      -0.10258057E-02  -0.42566511E-03    52761.723        57028.986
  11580.800       0.24123197       -8486.3494       0.12232009       0.27317354      -0.13205313E-02  -0.13723735E-02    52772.878        55819.246
  11581.200       0.24046318       -8305.0556       0.12185591       0.27268344      -0.21237046E-02  -0.85904896E-03    52539.989        54626.808
  11581.600       0.23953301       -8126.3740       0.12139174       0.27219348      -0.20077705E-02  -0.28460216E-03    52616.253        53451.551
  11582.000       0.23885697       -7950.2855       0.12092757       0.27170367      -0.23513863E-02  -0.14023057E-02    52531.283        52293.352
  11582.400       0.23765190       -7776.7713       0.12046339       0.27121400      -0.31296150E-02   0.12400709E-03    52678.059        51152.081
  11582.800       0.23635328       -7605.8123       0.11999922       0.27072447      -0.22521806E-02   0.15933650E-03    52400.571        50027.616
  11583.200       0.23585016       -7437.3896       0.11953504       0.27023508      -0.30021458E-02  -0.14662975E-02    52545.488        48919.838
  11583.600       0.23395156       -7271.4842       0.11907087       0.26974584      -0.34252186E-02   0.46242483E-03    52632.305        47828.609
  11584.000       0.23310998       -7108.0772       0.11860670       0.26925674      -0.26322060E-02   0.96704195E-03    52693.654        46753.818
  11584.400       0.23184579       -6947.1495       0.11814252       0.26876778      -0.26515850E-02   0.10218376E-02    52709.459        45695.333
  11584.800       0.23098871       -6788.6822       0.11767835       0.26827897      -0.18147359E-02   0.14729101E-03    52638.604        44653.033
  11585.200       0.23039401       -6632.6562       0.11721417       0.26779030      -0.25337522E-02  -0.91610925E-03    52435.995        43626.792
  11585.600       0.22896171       -6479.0528       0.11675000       0.26730177      -0.25476233E-02   0.13407247E-02    52865.619        42616.480
  11586.000       0.22835591       -6327.8528       0.11628583       0.26681338      -0.14611725E-02   0.10023918E-02    52786.112        41621.981
  11586.400       0.22779277       -6179.0373       0.11582165       0.26632514      -0.17457098E-02   0.10885337E-02    52734.853        40643.166
  11586.800       0.22695934       -6032.5873       0.11535748       0.26583704      -0.59034548E-03   0.24652795E-02    52599.505        39679.908
  11587.200       0.22732050       -5888.4838       0.11489330       0.26534908       0.22651378E-03   0.12278639E-02    52679.683        38732.092
  11587.600       0.22714055       -5746.7079       0.11442913       0.26486126       0.39194567E-03   0.88970450E-03    52806.483        37799.582
  11588.000       0.22763405       -5607.2406       0.11396496       0.26437359       0.93827738E-03   0.11432016E-02    52660.177        36882.261
  11588.400       0.22789117       -5470.0630       0.11350078       0.26388606       0.13065069E-02   0.11135257E-02    52636.747        35979.997
  11588.800       0.22867926       -5335.1559       0.11303661       0.26339867       0.18290979E-02   0.46596661E-03    52414.798        35092.672
  11589.200       0.22935445       -5202.5006       0.11257243       0.26291143       0.16792802E-02   0.28507742E-03    52573.079        34220.157
  11589.600       0.23002268       -5072.0780       0.11210826       0.26242433       0.20571598E-02   0.83829728E-03    52674.159        33362.326
  11590.000       0.23100018       -4943.8691       0.11164409       0.26193737       0.23499180E-02   0.11036027E-02    52659.593        32519.058
  11590.400       0.23190262       -4817.8549       0.11117991       0.26145055       0.29400420E-02   0.64581065E-03    52452.071        31690.226
  11590.800       0.23335221       -4694.0166       0.11071574       0.26096388       0.28665666E-02  -0.40402113E-03    52175.940        30875.707
  11591.200       0.23419587       -4572.3350       0.11025156       0.26047735       0.26168251E-02  -0.24661765E-03    52385.684        30075.371
  11591.600       0.23544567       -4452.7913       0.10978739       0.25999096       0.26692724E-02   0.28360831E-04    52357.779        29289.099
  11592.000       0.23633129       -4335.3664       0.10932322       0.25950472       0.26395138E-02   0.62034532E-03    52335.241        28516.761
  11592.400       0.23755728       -4220.0415       0.10885904       0.25901862       0.31655487E-02  -0.37280300E-03    52323.702        27758.237
  11592.800       0.23886373       -4106.7974       0.10839487       0.25853266       0.23412714E-02  -0.15633195E-02    52377.869        27013.400
  11593.200       0.23943030       -3995.6153       0.10793069       0.25804684       0.19148931E-02   0.26141976E-05    52427.076        26282.120
  11593.600       0.24039564       -3886.4761       0.10746652       0.25756117       0.23433627E-02   0.25540163E-03    52387.909        25564.281
  11594.000       0.24130499       -3779.3610       0.10700235       0.25707564       0.21192144E-02  -0.77991507E-03    52413.882        24859.753
  11594.400       0.24209101       -3674.2509       0.10653817       0.25659025       0.17194307E-02  -0.13166908E-02    52120.029        24168.413
  11594.800       0.24268053       -3571.1268       0.10607400       0.25610500       0.10658618E-02  -0.16927193E-02    51860.959        23490.134
  11595.200       0.24294370       -3469.9698       0.10560982       0.25561990       0.36525524E-03  -0.88825646E-03    51553.436        22824.791
  11595.600       0.24297274       -3370.7609       0.10514565       0.25513494       0.35525665E-03   0.33945187E-03    51566.934        22172.260
  11596.000       0.24322791       -3273.4811       0.10468148       0.25465012       0.63681673E-03  -0.69595816E-03    51573.397        21532.419
  11596.400       0.24348219       -3178.1115       0.10421730       0.25416545      -0.20150988E-03  -0.15646782E-02    51976.703        20905.142
  11596.800       0.24306670       -3084.6331       0.10375313       0.25368092      -0.61492583E-03   0.71814451E-04    52073.877        20290.299
  11597.200       0.24299025       -2993.0269       0.10328895       0.25319653      -0.14405832E-03   0.35204017E-03    52387.063        19687.772
  11597.600       0.24295145       -2903.2739       0.10282478       0.25271228      -0.33329370E-03  -0.15387316E-02    51743.582        19097.436
  11598.000       0.24272362       -2815.3552       0.10236061       0.25222818      -0.13750436E-02  -0.11539985E-02    51030.822        18519.162
  11598.400       0.24185142       -2729.2517       0.10189643       0.25174422      -0.12564925E-02   0.10359288E-02    53048.370        17952.824
  11598.800       0.24171842       -2644.9446       0.10143226       0.25126040      -0.54630057E-03   0.17555521E-03    53060.806        17398.306
  11599.200       0.24141438       -2562.4148       0.10096809       0.25077673      -0.11160483E-02  -0.70515410E-03    53165.044        16855.477
  11599.600       0.24082558       -2481.6434       0.10050391       0.25029319      -0.11104238E-02   0.68323062E-03    53315.630        16324.212
  11600.000       0.24052604       -2402.6114       0.10003974       0.24980980      -0.56946385E-03   0.14356946E-02    53380.166        15804.389
  11600.400       0.24037001       -2325.2998       0.99575563E-01   0.24932656       0.38131821E-04   0.89153484E-03    53355.575        15295.883
  11600.800       0.24055654       -2249.6896       0.99111389E-01   0.24884345       0.14376403E-03  -0.31053460E-03    53158.538        14798.570
  11601.200       0.24048502       -2175.7619       0.98647215E-01   0.24836049      -0.21029586E-03  -0.35931898E-03    53091.908        14312.321
  11601.600       0.24038831       -2103.4977       0.98183041E-01   0.24787767      -0.14369115E-03   0.28028907E-03    53096.179        13837.014
  11602.000       0.24037007       -2032.8781       0.97718867E-01   0.24739500       0.13935396E-04   0.70988131E-03    53284.811        13372.524
  11602.400       0.24039946       -1963.8840       0.97254693E-01   0.24691247       0.42421390E-03   0.13076562E-02    53125.092        12918.726
  11602.800       0.24070944       -1896.4965       0.96790519E-01   0.24643008       0.10600604E-02   0.45258573E-03    53135.934        12475.497
  11603.200       0.24124750       -1830.6966       0.96326345E-01   0.24594783       0.78628248E-03  -0.59607693E-03    53121.985        12042.712
  11603.600       0.24133847       -1766.4653       0.95862171E-01   0.24546572       0.58319881E-03   0.29060368E-03    52956.419        11620.241
  11604.000       0.24171406       -1703.7837       0.95397997E-01   0.24498376       0.10187654E-02   0.60877482E-03    53051.856        11207.965
  11604.400       0.24215348       -1642.6327       0.94933823E-01   0.24450194       0.10702187E-02  -0.27393979E-03    52919.839        10805.757
  11604.800       0.24257024       -1582.9935       0.94469649E-01   0.24402027       0.79961359E-03  -0.46758652E-03    52597.528        10413.492
  11605.200       0.24279317       -1524.8470       0.94005475E-01   0.24353873       0.69614945E-03   0.28595177E-03    52534.642        10031.044
  11605.600       0.24312716       -1468.1743       0.93541301E-01   0.24305734       0.10283750E-02   0.71379485E-03    52407.053        9658.2901
  11606.000       0.24361587       -1412.9564       0.93077127E-01   0.24257610       0.12671853E-02  -0.64611311E-03    52286.449        9295.1060
  11606.400       0.24414091       -1359.1743       0.92612954E-01   0.24209499       0.51148452E-03  -0.10960307E-02    52483.349        8941.3659
  11606.800       0.24402506       -1306.8091       0.92148780E-01   0.24161403       0.39036076E-03   0.36991620E-03    52519.218        8596.9408
  11607.200       0.24445319       -1255.8417       0.91684606E-01   0.24113321       0.80741748E-03   0.19151397E-03    52533.948        8261.7135
  11607.600       0.24467099       -1206.2532       0.91220432E-01   0.24065253       0.54357193E-03  -0.24469109E-03    52647.095        7935.5543
  11608.000       0.24488805       -1158.0246       0.90756258E-01   0.24017200       0.61166460E-03  -0.20312394E-03    52721.306        7618.3398
  11608.400       0.24516032       -1111.1370       0.90292084E-01   0.23969161       0.38107278E-03  -0.23059350E-03    52888.196        7309.9456
  11608.800       0.24519291       -1065.5714       0.89827910E-01   0.23921136       0.42718980E-03   0.89174001E-04    52888.917        7010.2449
  11609.200       0.24550208       -1021.3088       0.89363736E-01   0.23873125       0.45241198E-03  -0.26017560E-03    52784.155        6719.1164
  11609.600       0.24555484       -978.33021       0.88899562E-01   0.23825129       0.21904932E-03  -0.44233427E-03    53056.753        6436.4317
  11610.000       0.24567732       -936.61669       0.88435388E-01   0.23777147       0.98544563E-04   0.44636098E-05    53046.891        6162.0682
  11610.400       0.24563368       -896.14925       0.87971214E-01   0.23729179       0.22262021E-03   0.25352769E-03    52963.313        5895.8996
  11610.800       0.24585541       -856.90892       0.87507040E-01   0.23681226       0.30136672E-03  -0.78326336E-04    52902.697        5637.8038
  11611.200       0.24587477       -818.87673       0.87042866E-01   0.23633286       0.15995914E-03  -0.26298017E-03    52823.142        5387.6530
  11611.600       0.24598338       -782.03370       0.86578692E-01   0.23585362       0.90982586E-04  -0.34812351E-03    52863.627        5145.3244
  11612.000       0.24594756       -746.36087       0.86114518E-01   0.23537451      -0.11853967E-03   0.11581305E-03    52990.978        4910.6916
  11612.400       0.24588855       -711.83925       0.85650344E-01   0.23489555       0.18363302E-03   0.35195842E-04    52812.073        4683.6306
  11612.800       0.24609446       -678.44988       0.85186170E-01   0.23441672      -0.90382996E-04  -0.80756624E-03    52734.204        4464.0185
  11613.200       0.24581624       -646.17378       0.84721996E-01   0.23393805      -0.46241997E-03  -0.45310252E-04    52806.072        4251.7256
  11613.600       0.24572453       -614.99198       0.84257822E-01   0.23345951      -0.12663120E-03  -0.42932204E-03    52855.145        4046.6315
  11614.000       0.24571494       -584.88551       0.83793648E-01   0.23298112      -0.80587760E-03  -0.15517241E-02    52761.146        3848.6107
  11614.000       0.24540217       -583.85102       0.83793648E-01   0.23298112      -0.74732082E-03   0.41018570E-04    52640.000        3841.8045
  11615.400       0.24466869       -487.70709       0.82169039E-01   0.23130787      -0.74845160E-03  -0.17470230E-03    52633.333        3209.4277
  11616.809       0.24329977       -402.14621       0.80533986E-01   0.22962563      -0.12380596E-02  -0.31202374E-03    52682.500        2646.6551
  11618.237       0.24115631       -327.11443       0.78876885E-01   0.22792251      -0.16336630E-02  -0.33831045E-03    52750.000        2153.1311
  11619.684       0.23860299       -262.20064       0.77197736E-01   0.22619859      -0.22107021E-02  -0.32581732E-03    52597.500        1726.1538
  11621.150       0.23471654       -206.92966       0.75496538E-01   0.22445394      -0.25827688E-02  -0.14885647E-03    52580.000        1362.5918
  11622.635       0.23098124       -160.75993       0.73773292E-01   0.22268863      -0.26499776E-02  -0.88015531E-04    52623.333        1058.8930
  11624.140       0.22679310       -123.05894       0.72026838E-01   0.22090155      -0.28459352E-02  -0.60408631E-04    52842.500        810.89295
  11625.663       0.22236375       -93.194888       0.70259495E-01   0.21909516      -0.28328949E-02   0.64980494E-04    52877.500        614.43762
  11627.205       0.21811028       -70.384855       0.68470105E-01   0.21726834      -0.26467700E-02   0.11316858E-03    52765.000        464.38015
  11628.766       0.21415082       -53.797918       0.66658666E-01   0.21542117      -0.24817328E-02   0.12358572E-03    52652.500        355.25608
  11630.347       0.21031268       -42.519087       0.64824018E-01   0.21355255      -0.22584637E-02   0.11493716E-03    52367.500        281.04606
  11631.946       0.20696891       -35.571716       0.62968483E-01   0.21166493      -0.21162327E-02   0.77592887E-04    52472.500        235.32880
  11633.565       0.20350264       -31.871691       0.61089738E-01   0.20975602      -0.20087698E-02   0.99326387E-04    52747.500        210.96965
  11635.202       0.20042835       -30.263046       0.59190106E-01   0.20782826      -0.17928259E-02   0.14133173E-03    52720.000        200.36882
  11636.859       0.19759707       -29.504333       0.57267266E-01   0.20587939      -0.15432230E-02   0.11900489E-03    52607.500        195.35988
  11638.534       0.19528634       -28.807055       0.55323537E-01   0.20391184      -0.13963017E-02   0.41368501E-04    52480.000        190.75844
  11640.229       0.19289153       -28.112702       0.53356600E-01   0.20192334      -0.14038112E-02   0.80107584E-04    52614.000        186.17569
  11641.943       0.19050074       -27.421983       0.51367615E-01   0.19991516      -0.11232149E-02   0.10506645E-03    52665.000        181.61687
  11643.676       0.18901981       -26.735184       0.49356581E-01   0.19788738      -0.10416471E-02  -0.13826275E-04    52502.500        177.08981
  11645.427       0.18687164       -26.052973       0.47324659E-01   0.19584127      -0.11713857E-02  -0.19368025E-04    52602.000        172.58855
  11647.198       0.18489419       -25.374854       0.45269529E-01   0.19377456      -0.11098613E-02   0.20571819E-04    52737.500        168.11532
  11648.988       0.18291943       -24.701499       0.43192350E-01   0.19168853      -0.10981294E-02   0.19418842E-04    52870.000        163.67344
  11650.797       0.18094202       -24.033182       0.41093124E-01   0.18958326      -0.10399729E-02   0.37410203E-04    52880.000        159.26468
  11652.625       0.17913705       -23.370179       0.38971849E-01   0.18745884      -0.96206850E-03   0.20894480E-04    52546.000        154.89201
  11654.472       0.17740642       -22.712759       0.36828525E-01   0.18531537      -0.96318569E-03  -0.79361345E-06    52565.000        150.55654
  11656.339       0.17555977       -22.060842       0.34661993E-01   0.18315179      -0.96501598E-03  -0.28733015E-05    52530.000        146.25652
  11658.224       0.17378568       -21.415392       0.32474573E-01   0.18097050      -0.97396632E-03   0.17716770E-04    52494.000        141.99950
  11660.128       0.17186942       -20.776316       0.30265105E-01   0.17877044      -0.89788714E-03   0.69596140E-04    52194.000        137.78347
  11662.051       0.17034947       -20.143870       0.28033589E-01   0.17655171      -0.70762189E-03   0.58787725E-04    52225.000        133.61365
  11663.994       0.16913375       -19.517987       0.25778864E-01   0.17431326      -0.67061380E-03   0.18459517E-04    52248.000        129.48901
  11665.955       0.16773139       -18.899559       0.23503251E-01   0.17205749      -0.63555594E-03   0.39020668E-04    52364.000        125.41217
  11667.935       0.16662902       -18.288506       0.21205590E-01   0.16978334      -0.51683334E-03   0.39475932E-04    52174.000        121.38581
  11669.935       0.16567440       -17.684767       0.18884720E-01   0.16748977      -0.47844173E-03   0.27350295E-04    52018.000        117.40853
  11671.953       0.16470665       -17.089180       0.16542962E-01   0.16517918      -0.40693986E-03   0.22989802E-04    52220.000        113.48478
  11673.991       0.16402385       -16.501384       0.14177996E-01   0.16284937      -0.38519510E-03  -0.12591015E-04    52182.000        109.61416
  11676.048       0.16312927       -15.921902       0.11790981E-01   0.16050160      -0.45850006E-03  -0.58983529E-04    52060.000        105.79682
  11678.123       0.16212933       -15.351224       0.93830786E-02   0.15813712      -0.62891504E-03  -0.88736922E-04    51928.000        102.03670
  11680.218       0.16050670       -14.789013       0.69519674E-02   0.15575374      -0.82853303E-03  -0.52587976E-04    52128.333        98.328171
  11682.332       0.15864203       -14.235755       0.44988079E-02   0.15335271      -0.85025783E-03  -0.18518843E-04    52366.000        94.676936
  11684.465       0.15689565       -13.691651       0.20236002E-02   0.15093415      -0.90718256E-03  -0.50224986E-04    51802.000        91.086687
  11686.616       0.15475566       -13.157140      -0.47249532E-03   0.14849929      -0.10654217E-02  -0.50318335E-04    51808.000        87.556951
  11688.787       0.15229090       -12.631915      -0.29917996E-02   0.14604598      -0.11246584E-02  -0.48387776E-04    52078.333        84.086150
  11690.977       0.14985102       -12.116409      -0.55331521E-02   0.14357545      -0.12764408E-02  -0.64906700E-04    52140.000        80.679437
  11693.186       0.14667584       -11.610796      -0.80965529E-02   0.14108783      -0.14101830E-02  -0.24187517E-04    52128.333        77.332961
  11695.414       0.14359404       -11.115244      -0.10682002E-01   0.13858322      -0.13837608E-02  -0.15226513E-05    51794.000        74.053276
  11697.662       0.14048212       -10.629701      -0.13290660E-01   0.13606062      -0.14169984E-02  -0.15852636E-04    51973.333        70.839223
  11699.928       0.13719771       -10.154751      -0.15920205E-01   0.13352238      -0.14553196E-02  -0.24187564E-04    51762.000        67.693712
  11702.213       0.13385896       -9.6903207      -0.18571799E-01   0.13096750      -0.15270760E-02  -0.39316132E-04    51615.000        64.617032
  11704.517       0.13018996       -9.2365462      -0.21245441E-01   0.12839609      -0.16357413E-02  -0.12386653E-04    51431.667        61.608268
  11706.841       0.12628875       -8.7933687      -0.23942292E-01   0.12580716      -0.15844014E-02   0.35821681E-04    51556.667        58.667676
  11709.183       0.12279714       -8.3612897      -0.26660031E-01   0.12320306      -0.14685973E-02   0.37251165E-04    51334.000        55.802777
  11711.544       0.11938194       -7.9402266      -0.29399817E-01   0.12058278      -0.14092092E-02   0.17285217E-04    51378.333        53.010836
  11713.925       0.11611467       -7.5301125      -0.32162813E-01   0.11794534      -0.13866308E-02   0.12362204E-04    51280.000        50.291884
  11716.324       0.11275384       -7.1313852      -0.34946696E-01   0.11529308      -0.13501178E-02   0.32379575E-04    51361.667        47.647211
  11718.743       0.10960981       -6.7437956      -0.37753789E-01   0.11262390      -0.12306260E-02   0.51212722E-04    51228.333        45.077221
  11721.181       0.10677669       -6.3675869      -0.40582929E-01   0.10993905      -0.11013776E-02   0.50974779E-04    51165.000        42.584131
  11723.637       0.10421966       -6.0029683      -0.43432957E-01   0.10723974      -0.98115548E-03   0.31359939E-04    50940.000        40.169090
  11726.113       0.10193763       -5.6496966      -0.46306194E-01   0.10452389      -0.94671042E-03   0.69870651E-05    50715.000        37.830490
  11728.608       0.99513566E-01   -5.3079664      -0.49201479E-01   0.10179273      -0.94642278E-03   0.15213997E-05    50780.000        35.566868
  11731.122       0.97197002E-01   -4.9778100      -0.52118813E-01   0.99046399E-01  -0.93908973E-03   0.82746229E-05    50851.429        33.380079
  11733.655       0.94773981E-01   -4.6592490      -0.55058194E-01   0.96285012E-01  -0.90466076E-03   0.20803059E-04    50651.667        31.268855
  11736.206       0.92597707E-01   -4.3524111      -0.58018464E-01   0.93509788E-01  -0.83332698E-03   0.76381102E-05    50561.667        29.236362
  11738.777       0.90505680E-01   -4.0570547      -0.61001942E-01   0.90718681E-01  -0.86553836E-03  -0.21738753E-04    50560.000        27.279941
  11741.367       0.88130663E-01   -3.7732898      -0.64007469E-01   0.87912912E-01  -0.94552069E-03  -0.77705846E-05    50617.143        25.397900
  11743.977       0.85588972E-01   -3.5009898      -0.67036204E-01   0.85091532E-01  -0.90594540E-03   0.11015132E-04    50348.333        23.590171
  11746.605       0.83385321E-01   -3.2403260      -0.70085827E-01   0.82256835E-01  -0.88782343E-03  -0.27959151E-05    50194.286        21.861200
  11749.252       0.80905704E-01   -2.9911417      -0.73157498E-01   0.79407873E-01  -0.92069385E-03  -0.62852499E-05    50073.333        20.205920
  11751.918       0.78493675E-01   -2.7533745      -0.76251218E-01   0.76544782E-01  -0.92121696E-03  -0.10974612E-04    50222.857        18.626177
  11754.603       0.75976272E-01   -2.5269487      -0.79366985E-01   0.73667695E-01  -0.97941900E-03  -0.16507685E-04    50071.667        17.120339
  11757.308       0.73214606E-01   -2.3116983      -0.82505962E-01   0.70775683E-01  -0.10101934E-02  -0.41921536E-05    50041.429        15.686398
  11760.031       0.70492942E-01   -2.1076798      -0.85665826E-01   0.67871021E-01  -0.10021740E-02  -0.38369943E-06    49762.857        14.326596
  11762.773       0.67737725E-01   -1.9146948      -0.88847739E-01   0.64952776E-01  -0.10122903E-02  -0.71901692E-05    49953.333        13.039145
  11765.535       0.64921296E-01   -1.7325491      -0.92052860E-01   0.62020029E-01  -0.10417487E-02  -0.14796753E-04    49771.429        11.822585
  11768.315       0.61964354E-01   -1.5612295      -0.95278869E-01   0.59075042E-01  -0.10942939E-02  -0.13532087E-04    49550.000        10.676308
  11771.115       0.58815136E-01   -1.4004529      -0.98528087E-01   0.56115839E-01  -0.11172578E-02  -0.40761467E-05    49495.714        9.5981112
  11773.934       0.55686483E-01   -1.2501079      -0.10179935       0.53143623E-01  -0.11171978E-02  -0.14700365E-05    49347.143        8.5886620
  11776.771       0.52496266E-01   -1.1100517      -0.10509151       0.50159587E-01  -0.11255723E-02   0.20947750E-06    49218.571        7.6464808
  11779.628       0.49277474E-01  -0.97997981      -0.10840687       0.47161773E-01  -0.11160050E-02   0.44833538E-05    49408.571        6.7697816
  11782.504       0.46098209E-01  -0.85972172      -0.11174428       0.44151379E-01  -0.10998692E-02   0.12924870E-04    49340.000        5.9578914
  11785.399       0.42930129E-01  -0.74903957      -0.11510374       0.41128550E-01  -0.10414156E-02   0.59607525E-05    49294.286        5.2090590
  11788.313       0.40048626E-01  -0.64767902      -0.11848525       0.38093435E-01  -0.10652432E-02  -0.12385804E-04    49162.857        4.5234229
  11791.245       0.36702717E-01  -0.55539885      -0.12188764       0.35047219E-01  -0.11138230E-02   0.22105498E-05    49432.857        3.8944570
  11794.197       0.33494891E-01  -0.47184810      -0.12531325       0.31987973E-01  -0.10522363E-02   0.80704457E-05    49050.000        3.3238158
  11797.168       0.30470322E-01  -0.39675444      -0.12876090       0.28916888E-01  -0.10660217E-02  -0.84527597E-05    49030.000        2.8100052
  11800.159       0.27139270E-01  -0.32977378      -0.13223176       0.25833085E-01  -0.11026317E-02   0.38456356E-05    48927.500        2.3475407
  11803.168       0.23854531E-01  -0.27060978      -0.13572351       0.22738778E-01  -0.10429479E-02   0.10506389E-04    49028.571        1.9367938
  11806.196       0.20842993E-01  -0.21887939      -0.13923730       0.19633089E-01  -0.10392046E-02  -0.91893809E-05    48964.286        1.5767371
  11809.243       0.17541364E-01  -0.17420480      -0.14277315       0.16516170E-01  -0.10987734E-02  -0.12189453E-04    48811.250        1.2611809
  11812.309       0.14126191E-01  -0.13618938      -0.14633104       0.13388177E-01  -0.11137187E-02   0.91434260E-06    48885.714       0.98867756
  11815.395       0.10689766E-01  -0.10440803      -0.14991215       0.10248251E-01  -0.10931484E-02   0.47774470E-05    48670.000       0.75703805
  11818.499       0.73596029E-02  -0.78445939E-01  -0.15351414       0.70985814E-02  -0.10841463E-02  -0.25045075E-05    48511.429       0.56437276
  11821.622       0.39387866E-02  -0.57836735E-01  -0.15713817       0.39383089E-02  -0.11087439E-02  -0.41370533E-05    48651.250       0.40631900
  11824.765       0.41221330E-03  -0.42101001E-01  -0.16078542       0.76658429E-03  -0.11100691E-02  -0.26665499E-05    48528.571       0.27962413
  11827.926      -0.30590890E-02  -0.30753039E-01  -0.16445356      -0.24144145E-02  -0.11255539E-02  -0.42635996E-05    48551.250       0.18215270
  11831.107      -0.67260494E-02  -0.23268981E-01  -0.16814490      -0.56065391E-02  -0.11371089E-02   0.31884089E-05    48342.500       0.10880859
  11834.307      -0.10314981E-01  -0.19115193E-01  -0.17185829      -0.88086202E-02  -0.11052086E-02   0.77484647E-05    47982.500       0.57882042E-01
  11837.525      -0.13819278E-01  -0.17732441E-01  -0.17559257      -0.12019499E-01  -0.10873792E-02   0.29725658E-05    48251.429       0.25738226E-01
  11840.763      -0.17335101E-01  -0.18539018E-01  -0.17935006      -0.15241006E-01  -0.10860178E-02   0.36719853E-06    48323.750       0.79185785E-02
  11844.020      -0.20872964E-01  -0.20932710E-01  -0.18312960      -0.18471979E-01  -0.10849943E-02   0.23720659E-05    48062.500       0.39297358E-03
  11847.296      -0.24423368E-01  -0.24288103E-01  -0.18693118      -0.21712251E-01  -0.10705211E-02   0.92482517E-05    48131.250      -0.88968737E-03
  11850.591      -0.27907358E-01  -0.27957079E-01  -0.19075481      -0.24961657E-01  -0.10242240E-02   0.27688943E-04    48100.000       0.32703739E-03
  11853.904      -0.31191441E-01  -0.31267617E-01  -0.19459933      -0.28219046E-01  -0.88755251E-03   0.43078108E-04    47840.000       0.50103682E-03
  11856.659      -0.33293026E-01  -0.33242647E-01  -0.19779633      -0.30920343E-01  -0.76282604E-03   0.45272768E-04    47853.333      -0.33136420E-03
