# XDI/1.0 Athena/0.9.26
# Element.edge:                  L3
# Element.symbol:                Pt
# Column.1:                      energy eV
# Column.2:                      xmu
# Column.3:                      bkg
# Column.4:                      pre_edge
# Column.5:                      post_edge
# Column.6:                      der
# Column.7:                      sec
# Column.8:                      i0
# Column.9:                      chi(e)
# Athena.e0:                     11564.429
# Athena.eshift:                 0.000
# Athena.rbkg:                   1.0
# Athena.importance:             1
# Athena.standard:               None
# Athena.bkg_kweight:            2
# Athena.edge_step:              0.1514844
# Athena.fixed_step:             no
# Athena.pre_edge_range:         -150 -30
# Athena.pre_edge_line:          13.573732 - 0.00116167 * E
# Athena.normalization_range:    50 300
# Athena.post_edge_polynomial:   72.193741 - 0.0111996 * E + 4.30809213e-007 * E^2 + 0 * E^3
# Athena.spline_range_energy:    0.000 1027.484
# Athena.clamps:                 0 24
# Athena.spline_range_k:         0.000 16.422
# Athena.kweight:                2
# Athena.window:                 hanning
# Athena.phase_correction:       no
# Athena.k_range:                2 6.722
# Athena.dk:                     1
# Athena.r_range:                1 3
# Athena.dr:                     0.0
# Athena.window:                 hanning
# Athena.plot_multiplier:        1
# Athena.y_offset:               0
# ///
#------------------------
#   e         xmu       bkg       pre_edge       post_edge       der       sec       i0        chie
  11349.987       0.38963418       0.38963418       0.38876787       0.57589570      -0.94917681E-03  -0.11825149E-04    45097.143        0.0000000
  11359.987       0.38014242       0.38014242       0.37715115       0.56173607      -0.10674283E-02  -0.12355685E-04    44296.538        0.0000000
  11369.987       0.36828562       0.36828562       0.36553443       0.54766261      -0.11962905E-02  -0.77157736E-05    46168.846        0.0000000
  11379.987       0.35621661       0.35621661       0.35391770       0.53367531      -0.12217438E-02  -0.11657477E-05    46337.692        0.0000000
  11389.987       0.34385074       0.34385074       0.34230098       0.51977417      -0.12196055E-02   0.95071874E-06    46825.385        0.0000000
  11399.987       0.33182450       0.33182450       0.33068426       0.50595919      -0.12027294E-02   0.13869391E-05    47228.846        0.0000000
  11409.987       0.31979615       0.31979615       0.31906754       0.49223038      -0.11918667E-02   0.66737230E-06    47292.308        0.0000000
  11419.987       0.30798716       0.30798716       0.30745082       0.47858772      -0.11893820E-02  -0.82772096E-07    48376.923        0.0000000
  11429.987       0.29600852       0.29600852       0.29583410       0.46503123      -0.11935221E-02   0.41039794E-07    48880.000        0.0000000
  11439.987       0.28411672       0.28411672       0.28421737       0.45156090      -0.11885612E-02   0.41203205E-06    49166.538        0.0000000
  11449.987       0.27223729       0.27223729       0.27260065       0.43817673      -0.11852815E-02   0.61068811E-06    49368.462        0.0000000
  11459.987       0.26041109       0.26041109       0.26098393       0.42487873      -0.11763474E-02   0.14182178E-05    49919.231        0.0000000
  11469.987       0.24871034       0.24871034       0.24936721       0.41166688      -0.11569171E-02   0.15201066E-05    50280.000        0.0000000
  11479.987       0.23727275       0.23727275       0.23775049       0.39854120      -0.11459453E-02   0.35409139E-06    50736.154        0.0000000
  11489.987       0.22579144       0.22579144       0.22613377       0.38550168      -0.11498353E-02  -0.40150705E-06    51084.800        0.0000000
  11499.987       0.21427604       0.21427604       0.21451704       0.37254832      -0.11539754E-02   0.59644666E-06    51622.692        0.0000000
  11509.987       0.20271193       0.20271193       0.20290032       0.35968112      -0.11379064E-02   0.32598845E-05    51724.231        0.0000000
  11519.987       0.19151791       0.19151791       0.19128360       0.34690009      -0.10887777E-02   0.93813564E-05    52049.600        0.0000000
  11529.987       0.18093638       0.18093638       0.17966688       0.33420522      -0.95027924E-03   0.94315081E-05    52353.600        0.0000000
  11539.987       0.17251233       0.17251233       0.16805016       0.32159650      -0.90014755E-03  -0.20843745E-04    52419.444        0.0000000
  11544.000       0.16832261       0.16832261       0.16338837       0.31656085      -0.12423626E-02  -0.10926281E-03    52298.333        0.0000000
  11544.400       0.16702978       0.16702978       0.16292370       0.31605968      -0.13823243E-02   0.11058598E-02    52075.734        0.0000000
  11544.800       0.16721675       0.16721675       0.16245903       0.31555865      -0.35767480E-03   0.85253562E-03    52099.072        0.0000000
  11545.200       0.16674364       0.16674364       0.16199436       0.31505775      -0.70029583E-03  -0.12858865E-03    52159.673        0.0000000
  11545.600       0.16665651       0.16665651       0.16152969       0.31455699      -0.46054572E-03   0.27734374E-03    52035.533        0.0000000
  11546.000       0.16637521       0.16637521       0.16106502       0.31405637      -0.47842084E-03  -0.53407895E-03    52058.004        0.0000000
  11546.400       0.16627378       0.16627378       0.16060035       0.31355588      -0.88780888E-03  -0.46662289E-03    51780.964        0.0000000
  11546.800       0.16566496       0.16566496       0.16013569       0.31305554      -0.85171915E-03   0.63565268E-03    52123.744        0.0000000
  11547.200       0.16559240       0.16559240       0.15967102       0.31255533      -0.37928674E-03   0.57501419E-03    52013.390        0.0000000
  11547.600       0.16536153       0.16536153       0.15920635       0.31205526      -0.39170779E-03   0.32029293E-03    52483.240        0.0000000
  11548.000       0.16527903       0.16527903       0.15874168       0.31155533      -0.12305240E-03   0.28991190E-03    52410.532        0.0000000
  11548.400       0.16526309       0.16526309       0.15827701       0.31105553      -0.15977827E-03  -0.47012718E-03    52218.623        0.0000000
  11548.800       0.16515121       0.16515121       0.15781234       0.31055587      -0.49915414E-03  -0.59009513E-03    51926.754        0.0000000
  11549.200       0.16486376       0.16486376       0.15734767       0.31005636      -0.63185438E-03   0.36806803E-03    52004.836        0.0000000
  11549.600       0.16464573       0.16464573       0.15688300       0.30955697      -0.20469972E-03   0.55828397E-03    52195.492        0.0000000
  11550.000       0.16470000       0.16470000       0.15641834       0.30905773      -0.18522721E-03  -0.42522168E-03    52374.232        0.0000000
  11550.400       0.16449755       0.16449755       0.15595367       0.30855863      -0.54487707E-03   0.42573781E-04    52282.588        0.0000000
  11550.800       0.16426410       0.16426410       0.15548900       0.30805966      -0.15116818E-03   0.78811191E-03    52581.555        0.0000000
  11551.200       0.16437661       0.16437661       0.15502433       0.30756083       0.85612465E-04   0.43334391E-03    52596.888        0.0000000
  11551.600       0.16433259       0.16433259       0.15455966       0.30706214       0.19550695E-03   0.18389520E-03    52610.318        0.0000000
  11552.000       0.16453302       0.16453302       0.15409499       0.30656358       0.23272863E-03   0.19984867E-03    52524.642        0.0000000
  11552.400       0.16451878       0.16451878       0.15363032       0.30606517       0.35538588E-03  -0.13333318E-03    52645.662        0.0000000
  11552.800       0.16481733       0.16481733       0.15316565       0.30556689       0.12606209E-03  -0.13439650E-03    52699.672        0.0000000
  11553.200       0.16461963       0.16461963       0.15270098       0.30506875       0.24786868E-03   0.93510106E-03    52735.300        0.0000000
  11553.600       0.16501562       0.16501562       0.15223632       0.30457075       0.87414293E-03   0.59230012E-03    52710.518        0.0000000
  11554.000       0.16531894       0.16531894       0.15177165       0.30407288       0.72170878E-03  -0.49428654E-03    52544.770        0.0000000
  11554.400       0.16559299       0.16559299       0.15130698       0.30357515       0.47871370E-03  -0.29419815E-03    52342.981        0.0000000
  11554.800       0.16570191       0.16570191       0.15084231       0.30307757       0.48635026E-03   0.80326719E-03    52310.218        0.0000000
  11555.200       0.16598207       0.16598207       0.15037764       0.30258012       0.11213275E-02   0.13322437E-02    52429.765        0.0000000
  11555.600       0.16659897       0.16659897       0.14991297       0.30208280       0.15521453E-02   0.13057837E-02    52574.935        0.0000000
  11556.000       0.16722378       0.16722378       0.14944830       0.30158563       0.21659544E-02   0.93710286E-03    52708.403        0.0000000
  11556.400       0.16833174       0.16833174       0.14898363       0.30108859       0.23018275E-02  -0.30037842E-03    52801.997        0.0000000
  11556.800       0.16906525       0.16906525       0.14851896       0.30059169       0.19256517E-02   0.18304517E-03    52588.294        0.0000000
  11557.200       0.16987226       0.16987226       0.14805430       0.30009493       0.24482637E-02   0.15946055E-02    52653.643        0.0000000
  11557.600       0.17102386       0.17102386       0.14758963       0.29959830       0.32013361E-02   0.14671949E-02    52637.008        0.0000000
  11558.000       0.17243333       0.17243333       0.14712496       0.29910182       0.36220196E-02   0.68992921E-03    52188.421        0.0000000
  11558.400       0.17392147       0.17392147       0.14666029       0.29860547       0.37532794E-02   0.10908681E-02    52236.180        0.0000000
  11558.800       0.17543595       0.17543595       0.14619562       0.29810926       0.44947141E-02   0.24016413E-02    52579.033        0.0000000
  11559.200       0.17751724       0.17751724       0.14573095       0.29761319       0.56745924E-02   0.18442225E-02    52510.703        0.0000000
  11559.600       0.17997562       0.17997562       0.14526628       0.29711725       0.59700921E-02   0.15010487E-02    52404.301        0.0000000
  11560.000       0.18229332       0.18229332       0.14480161       0.29662146       0.68754314E-02   0.28079132E-02    52274.472        0.0000000
  11560.400       0.18547597       0.18547597       0.14433694       0.29612580       0.82164227E-02   0.28320389E-02    52503.314        0.0000000
  11560.800       0.18886646       0.18886646       0.14387228       0.29563028       0.91410626E-02   0.40617351E-02    52571.106        0.0000000
  11561.200       0.19278882       0.19278882       0.14340761       0.29513489       0.11465811E-01   0.64872120E-02    52587.566        0.0000000
  11561.600       0.19803911       0.19803911       0.14294294       0.29463965       0.14330832E-01   0.64165245E-02    52573.425        0.0000000
  11562.000       0.20425348       0.20425348       0.14247827       0.29414454       0.16599030E-01   0.57741593E-02    52549.578        0.0000000
  11562.400       0.21131833       0.21131833       0.14201360       0.29364957       0.18950160E-01   0.65168990E-02    52520.000        0.0000000
  11562.800       0.21941361       0.21941361       0.14154893       0.29315474       0.21812550E-01   0.98628007E-02    52668.590        0.0000000
  11563.200       0.22876837       0.22876837       0.14108426       0.29266004       0.26840400E-01   0.13972183E-01    52740.000        0.0000000
  11563.600       0.24088593       0.24088593       0.14061959       0.29216549       0.32990296E-01   0.14149962E-01    52622.261        0.0000000
  11564.000       0.25516061       0.25516061       0.14015492       0.29167107       0.38160370E-01   0.12339483E-01    52542.996        0.0000000
  11564.400       0.27141423       0.27141423       0.13969026       0.29117679       0.42861882E-01   0.12449413E-01    52594.946        0.0000000
  11564.800       0.28945011       -16704.150       0.13922559       0.29068265       0.48119900E-01   0.16893950E-01    52545.391        110271.68
  11565.200       0.30991015       -16426.264       0.13876092       0.29018864       0.56377042E-01   0.21404189E-01    52541.752        108437.40
  11565.600       0.33455174       -16151.486       0.13829625       0.28969478       0.65243252E-01   0.16380418E-01    52687.081        106623.66
  11566.000       0.36210475       -15879.799       0.13783158       0.28920105       0.69481377E-01   0.65552773E-02    52924.491        104830.34
  11566.400       0.39013685       -15611.185       0.13736691       0.28870746       0.70487473E-01  -0.66320653E-03    53011.140        103057.31
  11566.800       0.41849473       -15345.627       0.13690224       0.28821400       0.68950811E-01  -0.12374942E-01    52883.434        101304.46
  11567.200       0.44529750       -15083.106       0.13643757       0.28772069       0.60587520E-01  -0.29443929E-01    52762.850        99571.650
  11567.600       0.46696474       -14823.607       0.13597291       0.28722751       0.45395668E-01  -0.45418617E-01    52777.180        97858.747
  11568.000       0.48161403       -14567.110       0.13550824       0.28673447       0.24252626E-01  -0.57583921E-01    52971.264        96165.621
  11568.400       0.48636685       -14313.599       0.13504357       0.28624157      -0.67146854E-03  -0.60420571E-01    53130.437        94492.139
  11568.800       0.48107686       -14063.056       0.13457890       0.28574881      -0.24083831E-01  -0.53292053E-01    53044.625        92838.185
  11569.200       0.46709978       -13815.463       0.13411423       0.28525618      -0.43305111E-01  -0.41953854E-01    52890.230        91203.651
  11569.600       0.44643277       -13570.804       0.13364956       0.28476369      -0.57646914E-01  -0.29231098E-01    52714.547        89588.435
  11570.000       0.42098225       -13329.060       0.13318489       0.28427134      -0.66689989E-01  -0.99944123E-02    52777.857        87992.435
  11570.400       0.39308078       -13090.215       0.13272022       0.28377913      -0.65642444E-01   0.77135928E-02    52699.210        86415.550
  11570.800       0.36846830       -12854.250       0.13225555       0.28328705      -0.60519115E-01   0.12821455E-01    52720.401        84857.703
  11571.200       0.34466548       -12621.148       0.13179089       0.28279512      -0.55385280E-01   0.19068883E-01    52659.753        83318.762
  11571.600       0.32416007       -12390.892       0.13132622       0.28230332      -0.45264009E-01   0.22221578E-01    52413.880        81798.628
  11572.000       0.30845428       -12163.464       0.13086155       0.28181166      -0.37608018E-01   0.14888881E-01    52229.959        80297.196
  11572.400       0.29407366       -11938.847       0.13039688       0.28132014      -0.33352904E-01   0.11793914E-01    52341.397        78814.326
  11572.800       0.28177195       -11717.023       0.12993221       0.28082875      -0.28172887E-01   0.13903765E-01    52402.530        77349.909
  11573.200       0.27153535       -11497.974       0.12946754       0.28033750      -0.22229891E-01   0.13945688E-01    52626.126        75903.828
  11573.600       0.26398804       -11281.684       0.12900287       0.27984639      -0.17016336E-01   0.11205622E-01    52861.436        74475.974
  11574.000       0.25792228       -11068.135       0.12853820       0.27935542      -0.13265394E-01   0.87576135E-02    52809.227        73066.221
  11574.400       0.25337573       -10857.309       0.12807353       0.27886459      -0.10010245E-01   0.70764974E-02    52775.243        71674.456
  11574.800       0.24991408       -10649.188       0.12760887       0.27837389      -0.76041960E-02   0.56099955E-02    52821.734        70300.559
  11575.200       0.24729237       -10443.756       0.12714420       0.27788333      -0.55222490E-02   0.47737766E-02    52656.998        68944.413
  11575.600       0.24549628       -10240.994       0.12667953       0.27739291      -0.37851747E-02   0.35366909E-02    52802.080        67605.903
  11576.000       0.24426423       -10040.886       0.12621486       0.27690263      -0.26928963E-02   0.21884650E-02    52438.262        66284.912
  11576.400       0.24334197       -9843.4134       0.12575019       0.27641249      -0.20344027E-02   0.21826520E-02    52540.810        64981.323
  11576.800       0.24263671       -9648.5591       0.12528552       0.27592248      -0.94677472E-03   0.16916420E-02    52475.237        63695.019
  11577.200       0.24258455       -9456.3056       0.12482085       0.27543261      -0.68108904E-03   0.44175284E-03    52725.443        62425.888
  11577.600       0.24209184       -9266.6354       0.12435618       0.27494288      -0.59337245E-03   0.19527887E-03    52840.542        61173.807
  11578.000       0.24210985       -9079.5310       0.12389151       0.27445329      -0.52486594E-03   0.58881144E-03    52677.502        59938.668
  11578.400       0.24167194       -8894.9749       0.12342685       0.27396383      -0.12232329E-03   0.85138485E-03    52707.950        58720.347
  11578.800       0.24201199       -8712.9496       0.12296218       0.27347451       0.15624194E-03  -0.10875004E-03    52608.306        57518.739
  11579.200       0.24179694       -8533.4376       0.12249751       0.27298534      -0.20932332E-03  -0.92830093E-03    52625.795        56333.717
  11579.600       0.24184453       -8356.4214       0.12203284       0.27249629      -0.58639880E-03  -0.10043953E-02    52605.275        55165.174
  11580.000       0.24132782       -8181.8836       0.12156817       0.27200739      -0.10128396E-02  -0.10793701E-02    52787.406        54012.987
  11580.400       0.24103426       -8009.8066       0.12110350       0.27151862      -0.14498949E-02  -0.73905033E-03    52761.723        52877.046
  11580.800       0.24016790       -7840.1730       0.12063883       0.27103000      -0.16040798E-02  -0.14307838E-03    52772.878        51757.231
  11581.200       0.23975100       -7672.9652       0.12017416       0.27054151      -0.15643576E-02  -0.97343100E-03    52539.989        50653.433
  11581.600       0.23891641       -7508.1657       0.11970949       0.27005315      -0.23828246E-02  -0.11767936E-02    52616.253        49565.531
  11582.000       0.23784474       -7345.7572       0.11924483       0.26956494      -0.25057924E-02  -0.19867386E-03    52531.283        48493.409
  11582.400       0.23691178       -7185.7220       0.11878016       0.26907686      -0.25417637E-02  -0.16561741E-03    52678.059        47436.957
  11582.800       0.23581133       -7028.0427       0.11831549       0.26858892      -0.26382864E-02  -0.51239122E-04    52400.571        46396.055
  11583.200       0.23480115       -6872.7018       0.11785082       0.26810112      -0.25827550E-02  -0.26493803E-04    52545.488        45370.590
  11583.600       0.23374512       -6719.6819       0.11738615       0.26761346      -0.26594814E-02  -0.62759668E-03    52632.305        44360.446
  11584.000       0.23267357       -6568.9653       0.11692148       0.26712593      -0.30848324E-02  -0.10052072E-02    52693.654        43365.508
  11584.400       0.23127726       -6420.5347       0.11645681       0.26663855      -0.34636472E-02   0.36152960E-03    52709.459        42385.658
  11584.800       0.22990265       -6274.3724       0.11599214       0.26615130      -0.27956087E-02   0.23390497E-02    52638.604        41420.782
  11585.200       0.22904077       -6130.4612       0.11552748       0.26566419      -0.15924074E-02   0.11706586E-02    52435.995        40470.769
  11585.600       0.22862872       -5988.7833       0.11506281       0.26517721      -0.18590818E-02  -0.55028759E-03    52865.619        39535.503
  11586.000       0.22755350       -5849.3215       0.11459814       0.26469038      -0.20326375E-02   0.11652186E-02    52786.112        38614.861
  11586.400       0.22700261       -5712.0581       0.11413347       0.26420368      -0.92690692E-03   0.18560904E-02    52734.853        37708.735
  11586.800       0.22681198       -5576.9756       0.11366880       0.26371712      -0.54776516E-03   0.14850662E-02    52599.505        36817.009
  11587.200       0.22656440       -5444.0567       0.11320413       0.26323070       0.26114606E-03   0.86367890E-03    52679.683        35939.564
  11587.600       0.22702089       -5313.2837       0.11273946       0.26274441       0.14317796E-03   0.55597086E-03    52806.483        35076.290
  11588.000       0.22667894       -5184.6392       0.11227479       0.26225826       0.70592275E-03   0.16969604E-02    52660.177        34227.062
  11588.400       0.22758563       -5058.1058       0.11181012       0.26177226       0.15007463E-02   0.94934104E-03    52636.747        33391.777
  11588.800       0.22787954       -4933.6658       0.11134546       0.26128638       0.14653956E-02   0.63503324E-03    52414.798        32570.309
  11589.200       0.22875795       -4811.3019       0.11088079       0.26080065       0.20087729E-02   0.45341168E-03    52573.079        31762.549
  11589.600       0.22948656       -4690.9965       0.11041612       0.26031506       0.18281249E-02   0.77137751E-03    52674.159        30968.377
  11590.000       0.23022045       -4572.7321       0.10995145       0.25982960       0.26258749E-02   0.18571968E-02    52659.593        30187.678
  11590.400       0.23158726       -4456.4913       0.10948678       0.25934428       0.33138824E-02  -0.30074906E-03    52452.071        29420.342
  11590.800       0.23287155       -4342.2565       0.10902211       0.25885910       0.23852757E-02  -0.17297196E-02    52175.940        28666.248
  11591.200       0.23349548       -4230.0103       0.10855744       0.25837405       0.19301067E-02   0.56169739E-03    52385.684        27925.277
  11591.600       0.23441564       -4119.7351       0.10809277       0.25788915       0.28346336E-02   0.13041396E-02    52357.779        27197.319
  11592.000       0.23576319       -4011.4136       0.10762810       0.25740438       0.29734184E-02  -0.66672242E-03    52335.241        26482.261
  11592.400       0.23679437       -3905.0281       0.10716344       0.25691975       0.23012556E-02  -0.10737797E-02    52323.702        25779.981
  11592.800       0.23760419       -3800.5612       0.10669877       0.25643526       0.21143946E-02   0.15370756E-03    52377.869        25090.365
  11593.200       0.23848589       -3697.9954       0.10623410       0.25595090       0.24242217E-02  -0.34625572E-03    52427.076        24413.299
  11593.600       0.23954357       -3597.3133       0.10576943       0.25546669       0.18373900E-02  -0.56214378E-03    52387.909        23748.669
  11594.000       0.23995580       -3498.4972       0.10530476       0.25498261       0.19745067E-02   0.56288758E-03    52413.882        23096.353
  11594.400       0.24112317       -3401.5298       0.10484009       0.25449867       0.22877001E-02  -0.14914553E-02    52120.029        22456.246
  11594.800       0.24178596       -3306.3935       0.10437542       0.25401486       0.78134243E-03  -0.21131178E-02    51860.959        21828.223
  11595.200       0.24174825       -3213.0709       0.10391075       0.25353120       0.59720587E-03  -0.44124929E-03    51553.436        21212.169
  11595.600       0.24226373       -3121.5444       0.10344608       0.25304767       0.42834300E-03  -0.83586388E-03    51566.934        20607.974
  11596.000       0.24209092       -3031.7966       0.10298142       0.25256428      -0.71485238E-04  -0.51224369E-03    51573.397        20015.517
  11596.400       0.24220654       -2943.8099       0.10251675       0.25208103       0.18548042E-04  -0.95438872E-03    51976.703        19434.688
  11596.800       0.24210576       -2857.5669       0.10205208       0.25159792      -0.83499621E-03  -0.11100494E-02    52073.877        18865.368
  11597.200       0.24153854       -2773.0501       0.10158741       0.25111494      -0.86949144E-03  -0.15999866E-03    52387.063        18307.440
  11597.600       0.24141017       -2690.2420       0.10112274       0.25063210      -0.96299514E-03  -0.57231249E-04    51743.582        17760.795
  11598.000       0.24076815       -2609.1251       0.10065807       0.25014940      -0.91527644E-03   0.32178111E-03    51030.822        17225.311
  11598.400       0.24067795       -2529.6819       0.10019340       0.24966684      -0.70557026E-03  -0.12889400E-03    53048.370        16700.878
  11598.800       0.24020369       -2451.8949       0.99728734E-01   0.24918442      -0.10183916E-02  -0.49017627E-03    53060.806        16187.377
  11599.200       0.23986323       -2375.7466       0.99264065E-01   0.24870213      -0.10977113E-02   0.52970984E-03    53165.044        15684.694
  11599.600       0.23932552       -2301.2196       0.98799396E-01   0.24821998      -0.59462376E-03   0.19861970E-03    53315.630        15192.713
  11600.000       0.23938753       -2228.2963       0.98334727E-01   0.24773797      -0.93881551E-03  -0.55140310E-03    53380.166        14711.322
  11600.400       0.23857447       -2156.9593       0.97870058E-01   0.24725610      -0.10357462E-02   0.14657217E-02    53355.575        14240.396
  11600.800       0.23855894       -2087.1910       0.97405389E-01   0.24677436       0.23376187E-03   0.12339959E-02    53158.538        13779.832
  11601.200       0.23876148       -2018.9740       0.96940720E-01   0.24629277      -0.48549492E-04  -0.22103375E-03    53091.908        13329.510
  11601.600       0.23852010       -1952.2908       0.96476052E-01   0.24581131       0.56934870E-04   0.51329435E-03    53096.179        12889.309
  11602.000       0.23880703       -1887.1238       0.96011383E-01   0.24532998       0.36208598E-03   0.22714256E-03    53284.811        12459.122
  11602.400       0.23880977       -1823.4557       0.95546714E-01   0.24484880       0.23864892E-03   0.29206268E-03    53125.092        12038.827
  11602.800       0.23899794       -1761.2688       0.95082045E-01   0.24436776       0.59573613E-03   0.66372207E-03    53135.934        11628.312
  11603.200       0.23928635       -1700.5458       0.94617376E-01   0.24388685       0.76962658E-03   0.28437168E-03    53121.985        11227.460
  11603.600       0.23961365       -1641.2690       0.94152707E-01   0.24340608       0.82323347E-03   0.15938857E-03    52956.419        10836.156
  11604.000       0.23994494       -1583.4211       0.93688038E-01   0.24292544       0.89713743E-03  -0.39647626E-03    53051.856        10454.285
  11604.400       0.24033136       -1526.9845       0.93223370E-01   0.24244495       0.50605246E-03  -0.74661896E-03    52919.839        10081.730
  11604.800       0.24034978       -1471.9418       0.92758701E-01   0.24196459       0.29984227E-03   0.52354184E-03    52597.528        9718.3747
  11605.200       0.24057123       -1418.2754       0.92294032E-01   0.24148438       0.92488592E-03   0.10869022E-02    52534.642        9364.1061
  11605.600       0.24108969       -1365.9679       0.91829363E-01   0.24100429       0.11693640E-02   0.27664186E-04    52407.053        9018.8097
  11606.000       0.24150672       -1315.0017       0.91364694E-01   0.24052435       0.94701727E-03  -0.10323104E-02    52286.449        8682.3674
  11606.400       0.24184731       -1265.3594       0.90900025E-01   0.24004455       0.34351569E-03  -0.99605875E-03    52483.349        8354.6640
  11606.800       0.24178153       -1217.0235       0.90435356E-01   0.23956488       0.15017027E-03   0.32928086E-03    52519.218        8035.5818
  11607.200       0.24196744       -1169.9765       0.89970688E-01   0.23908535       0.60694038E-03   0.41038080E-03    52533.948        7725.0096
  11607.600       0.24226709       -1124.2008       0.89506019E-01   0.23860596       0.47847491E-03  -0.51999571E-03    52647.095        7422.8311
  11608.000       0.24235022       -1079.6791       0.89041350E-01   0.23812670       0.19094381E-03   0.42541877E-04    52721.306        7128.9286
  11608.400       0.24241984       -1036.3938       0.88576681E-01   0.23764759       0.51250841E-03   0.79016899E-03    52888.196        6843.1881
  11608.800       0.24276023       -994.32743       0.88112012E-01   0.23716861       0.82307900E-03  -0.53012032E-03    52888.917        6565.4958
  11609.200       0.24307830       -953.46248       0.87647343E-01   0.23668977       0.88412156E-04  -0.12352015E-02    52784.155        6295.7345
  11609.600       0.24283096       -913.78146       0.87182674E-01   0.23621107      -0.16508221E-03   0.41214501E-03    53056.753        6033.7849
  11610.000       0.24294624       -875.26689       0.86718005E-01   0.23573250       0.41812817E-03   0.89629251E-03    53046.891        5779.5379
  11610.400       0.24316546       -837.90128       0.86253337E-01   0.23525408       0.55195180E-03  -0.11809062E-04    52963.313        5532.8763
  11610.800       0.24338780       -801.66713       0.85788668E-01   0.23477579       0.40868092E-03  -0.38827871E-03    52902.697        5293.6838
  11611.200       0.24349241       -766.54695       0.85323999E-01   0.23429764       0.24132883E-03  -0.97210764E-03    52823.142        5061.8442
  11611.600       0.24358086       -732.52325       0.84859330E-01   0.23381963      -0.36900519E-03  -0.89588722E-03    52863.627        4837.2428
  11612.000       0.24319720       -699.57853       0.84394661E-01   0.23334175      -0.47538094E-03   0.49136361E-03    52990.978        4619.7610
  11612.400       0.24320056       -667.69532       0.83929992E-01   0.23286401       0.24085697E-04   0.36927442E-03    52812.073        4409.2891
  11612.800       0.24321647       -636.85610       0.83465323E-01   0.23238641      -0.17996140E-03  -0.52223748E-03    52734.204        4205.7091
  11613.200       0.24305659       -607.04340       0.83000655E-01   0.23190895      -0.39370428E-03  -0.31770289E-04    52806.072        4008.9043
  11613.600       0.24290151       -578.23973       0.82535986E-01   0.23143163      -0.20537764E-03  -0.44055132E-03    52855.145        3818.7604
  11614.000       0.24289229       -550.42757       0.82071317E-01   0.23095444      -0.74614534E-03  -0.10666101E-02    52761.146        3635.1629
  11614.000       0.24260305       -549.47189       0.82071317E-01   0.23095444      -0.63202167E-03   0.27839932E-05    52640.000        3628.8522
  11615.400       0.24200746       -460.64080       0.80444976E-01   0.22928538      -0.74224775E-03  -0.18886583E-03    52633.333        3042.4440
  11616.809       0.24051807       -381.56525       0.78808180E-01   0.22760729      -0.11625458E-02  -0.26420233E-03    52682.500        2520.4296
  11618.237       0.23870931       -312.19618       0.77149312E-01   0.22590832      -0.14917898E-02  -0.36764438E-03    52750.000        2062.4889
  11619.684       0.23622918       -252.15466       0.75468372E-01   0.22418853      -0.22195234E-02  -0.38840272E-03    52597.500        1666.1180
  11621.150       0.23224384       -201.00270       0.73765361E-01   0.22244800      -0.26232069E-02  -0.10362793E-03    52580.000        1328.4202
  11622.635       0.22848810       -158.24113       0.72040278E-01   0.22068681      -0.25253294E-02  -0.37261578E-04    52623.333        1046.1118
  11624.140       0.22469311       -123.28679       0.70291961E-01   0.21890383      -0.27346190E-02  -0.97279307E-04    52842.500        815.34129
  11625.663       0.22020767       -95.557582       0.68522734E-01   0.21710151      -0.28198911E-02   0.54414393E-04    52877.500        632.26174
  11627.205       0.21605014       -74.331674       0.66731436E-01   0.21527874      -0.25678389E-02   0.14668375E-03    52765.000        492.11486
  11628.766       0.21223966       -58.843131       0.64918066E-01   0.21343561      -0.23647315E-02   0.10620188E-03    52652.500        389.84457
  11630.347       0.20862015       -48.248386       0.63081462E-01   0.21157099      -0.22341526E-02   0.86866276E-04    52367.500        319.88116
  11631.946       0.20513506       -41.647406       0.61223948E-01   0.20968734      -0.20884967E-02   0.10231619E-03    52472.500        276.28284
  11633.565       0.20189937       -38.040589       0.59343201E-01   0.20778238      -0.19048991E-02   0.11716348E-03    52747.500        252.45166
  11635.202       0.19893271       -36.362582       0.57441544E-01   0.20585852      -0.17070124E-02   0.11639403E-03    52720.000        241.35498
  11636.859       0.19627647       -35.468741       0.55516653E-01   0.20391352      -0.15214971E-02   0.71465073E-04    52607.500        235.43690
  11638.534       0.19386308       -34.632473       0.53570852E-01   0.20194979      -0.14688908E-02   0.53050117E-04    52480.000        229.90048
  11640.229       0.19132631       -33.799686       0.51601818E-01   0.19996508      -0.13427182E-02   0.10282494E-03    52614.000        224.38622
  11641.943       0.18928575       -32.971229       0.49610712E-01   0.19796063      -0.11183606E-02   0.51472095E-04    52665.000        218.90382
  11643.676       0.18747132       -32.147444       0.47597534E-01   0.19593654      -0.11652939E-02  -0.23493805E-04    52502.500        213.45376
  11645.427       0.18522587       -31.329134       0.45563446E-01   0.19389406      -0.12002130E-02   0.16101150E-04    52602.000        208.03700
  11647.198       0.18324417       -30.515701       0.43506124E-01   0.19183093      -0.11085857E-02   0.41224251E-04    52737.500        202.65417
  11648.988       0.18127820       -29.707952       0.41426731E-01   0.18974841      -0.10534134E-02   0.16543272E-04    52870.000        197.30896
  11650.797       0.17945294       -28.906215       0.39325266E-01   0.18764660      -0.10490464E-02   0.15504621E-04    52880.000        192.00438
  11652.625       0.17746281       -28.110820       0.37201730E-01   0.18552557      -0.99702314E-03   0.32002483E-04    52546.000        186.74057
  11654.472       0.17578888       -27.322090       0.35056121E-01   0.18338542      -0.93143732E-03   0.38458727E-05    52565.000        181.52284
  11656.339       0.17400346       -26.539930       0.32887279E-01   0.18122508      -0.98273956E-03  -0.57421788E-05    52530.000        176.34775
  11658.224       0.17210164       -25.765493       0.30697527E-01   0.17904697      -0.95298197E-03   0.41977137E-04    52494.000        171.22287
  11660.128       0.17039261       -24.998668       0.28485703E-01   0.17685000      -0.82368819E-03   0.38203855E-04    52194.000        166.14952
  11662.051       0.16894938       -24.239762       0.26251808E-01   0.17463429      -0.80677582E-03   0.95151519E-05    52225.000        161.13020
  11663.994       0.16727361       -23.488695       0.23994679E-01   0.17239876      -0.78690262E-03   0.42002303E-04    52248.000        156.16109
  11665.955       0.16587732       -22.746537       0.21716640E-01   0.17014582      -0.64279882E-03   0.54281850E-04    52364.000        151.25263
  11667.935       0.16474034       -22.013189       0.19416529E-01   0.16787442      -0.57297784E-03   0.39681057E-04    52174.000        146.40405
  11669.935       0.16359686       -21.288580       0.17093185E-01   0.16558350      -0.48486822E-03   0.33606152E-04    52018.000        141.61311
  11671.953       0.16279214       -20.573716       0.14748930E-01   0.16327546      -0.43794832E-03   0.57480804E-05    52220.000        136.88873
  11673.991       0.16182055       -19.868161       0.12381442E-01   0.16094810      -0.46155400E-03  -0.71007305E-05    52182.000        132.22472
  11676.048       0.16090208       -19.172544       0.99918826E-02   0.15860268      -0.46702582E-03  -0.40418128E-04    52060.000        127.62665
  11678.123       0.15989080       -18.487453       0.75814129E-02   0.15624042      -0.62856171E-03  -0.76695917E-04    51928.000        123.09745
  11680.218       0.15828098       -17.812482       0.51477097E-02   0.15385916      -0.78684779E-03  -0.58180324E-04    52128.333        118.63111
  11682.332       0.15657895       -17.148215       0.26919348E-02   0.15146014      -0.87344270E-03  -0.42344736E-04    52366.000        114.23483
  11684.465       0.15457146       -16.494892       0.21408805E-03   0.14904345      -0.96668588E-03  -0.42163316E-04    51802.000        109.90877
  11686.616       0.15243767       -15.853043      -0.22846688E-02   0.14661035      -0.10540703E-02  -0.36202828E-04    51808.000        105.65762
  11688.787       0.15001577       -15.222295      -0.48066590E-02   0.14415866      -0.11231545E-02  -0.35809294E-04    52078.333        101.47785
  11690.977       0.14753959       -14.603171      -0.73507211E-02   0.14168963      -0.12102347E-02  -0.47177858E-04    52140.000        97.374451
  11693.186       0.14469195       -13.995878      -0.99168549E-02   0.13920336      -0.13306899E-02  -0.38506076E-04    52128.333        93.346710
  11695.414       0.14163532       -13.400620      -0.12505060E-01   0.13669997      -0.13810861E-02  -0.22941551E-04    51794.000        89.397029
  11697.662       0.13851021       -12.817332      -0.15116499E-01   0.13417845      -0.14333763E-02  -0.17168950E-04    51973.333        85.525919
  11699.928       0.13516506       -12.246718      -0.17748849E-01   0.13164114      -0.14585868E-02  -0.18847982E-04    51762.000        81.737016
  11702.213       0.13187218       -11.688687      -0.20403269E-01   0.12908703      -0.15191534E-02  -0.39461946E-04    51615.000        78.031529
  11704.517       0.12819367       -11.143405      -0.23079762E-01   0.12651624      -0.16396776E-02  -0.95636296E-05    51431.667        74.407653
  11706.841       0.12428375       -10.610801      -0.25779488E-01   0.12392777      -0.15634139E-02   0.51452935E-04    51556.667        70.865941
  11709.183       0.12089878       -10.091477      -0.28500124E-01   0.12132396      -0.13995982E-02   0.32743177E-04    51334.000        67.415363
  11711.544       0.11770144       -9.5853350      -0.31242832E-01   0.11870381      -0.14094228E-02  -0.20621973E-05    51378.333        64.053040
  11713.925       0.11421529       -9.0922946      -0.34008774E-01   0.11606633      -0.14093772E-02   0.21153807E-04    51280.000        60.775300
  11716.324       0.11096462       -8.6128822      -0.36795625E-01   0.11341384      -0.13083076E-02   0.39001434E-04    51361.667        57.589077
  11718.743       0.10791187       -8.1467992      -0.39605710E-01   0.11074427      -0.12214683E-02   0.42589533E-04    51228.333        54.492153
  11721.181       0.10503195       -7.6943381      -0.42437867E-01   0.10805883      -0.11014502E-02   0.43063030E-04    51165.000        51.486292
  11723.637       0.10252137       -7.2557514      -0.45290934E-01   0.10535874      -0.10107178E-02   0.30105886E-04    50940.000        48.574459
  11726.113       0.10004709       -6.8307471      -0.48167234E-01   0.10264192      -0.95296798E-03   0.15583620E-04    50715.000        45.752527
  11728.608       0.97784168E-01   -6.4195599      -0.51065606E-01   0.99909604E-01  -0.93325164E-03  -0.26737382E-05    50780.000        43.023203
  11731.122       0.95372429E-01   -6.0222298      -0.53986050E-01   0.97161901E-01  -0.96636073E-03   0.12789875E-04    50851.429        40.384371
  11733.655       0.92906945E-01   -5.6387834      -0.56928566E-01   0.94398939E-01  -0.86870114E-03   0.29065390E-04    50651.667        37.836836
  11736.206       0.90955952E-01   -5.2693758      -0.59891991E-01   0.91621930E-01  -0.81859229E-03  -0.74480749E-05    50561.667        35.385371
  11738.777       0.88714115E-01   -4.9137170      -0.62878650E-01   0.88828822E-01  -0.90685018E-03  -0.26415628E-04    50560.000        33.022748
  11741.367       0.86275698E-01   -4.5719409      -0.65887381E-01   0.86020832E-01  -0.95492335E-03  -0.49488419E-05    50617.143        30.750471
  11743.977       0.83748514E-01   -4.2438961      -0.68919346E-01   0.83197006E-01  -0.93258416E-03   0.10311085E-04    50348.333        28.568252
  11746.605       0.81390823E-01   -3.9297906      -0.71972220E-01   0.80359634E-01  -0.90091388E-03   0.52715185E-05    50194.286        26.479172
  11749.252       0.78996193E-01   -3.6294374      -0.75047166E-01   0.77507765E-01  -0.90477690E-03  -0.81822868E-05    50073.333        24.480630
  11751.918       0.76583743E-01   -3.3427630      -0.78144184E-01   0.74641527E-01  -0.94438637E-03  -0.15019806E-04    50222.857        22.572269
  11754.603       0.73942782E-01   -3.0696781      -0.81263274E-01   0.71761052E-01  -0.98514788E-03  -0.14270644E-04    50071.667        20.752110
  11757.308       0.71273796E-01   -2.8099846      -0.84405597E-01   0.68865402E-01  -0.10213051E-02  -0.58540784E-05    50041.429        19.020166
  11760.031       0.68399138E-01   -2.5637532      -0.87568830E-01   0.65956851E-01  -0.10169238E-02   0.72080878E-05    49762.857        17.375732
  11762.773       0.65716307E-01   -2.3307470      -0.90754135E-01   0.63034461E-01  -0.98191295E-03  -0.89333244E-05    49953.333        15.819869
  11765.535       0.62994689E-01   -2.1107343      -0.93962674E-01   0.60097304E-01  -0.10660928E-02  -0.23819839E-04    49771.429        14.349524
  11768.315       0.59808021E-01   -1.9037023      -0.97192123E-01   0.57147643E-01  -0.11139225E-02  -0.79456323E-05    49550.000        12.961799
  11771.115       0.56779001E-01   -1.7093121      -0.10044480       0.54183493E-01  -0.11104295E-02  -0.64333084E-08    49495.714        11.658568
  11773.934       0.53568518E-01   -1.5274330      -0.10371956       0.51206052E-01  -0.11139586E-02  -0.46128498E-06    49347.143        10.436728
  11776.771       0.50478451E-01   -1.3578961      -0.10701522       0.48216513E-01  -0.11130385E-02  -0.46126012E-05    49218.571        9.2971588
  11779.628       0.47230876E-01   -1.2003373      -0.11033412       0.45212907E-01  -0.11402228E-02   0.37655349E-05    49408.571        8.2356214
  11782.504       0.43941554E-01   -1.0545550      -0.11367509       0.42196429E-01  -0.10914507E-02   0.16032998E-04    49340.000        7.2515491
  11785.399       0.40932115E-01  -0.92026623      -0.11703813       0.39167220E-01  -0.10476964E-02   0.42719991E-05    49294.286        6.3451969
  11788.313       0.37855486E-01  -0.79716831      -0.12042324       0.36125423E-01  -0.10666346E-02  -0.93008160E-05    49162.857        5.5122758
  11791.245       0.34696569E-01  -0.68497495      -0.12382927       0.33072221E-01  -0.11020689E-02   0.47969064E-05    49432.857        4.7507962
  11794.197       0.31370912E-01  -0.58326676      -0.12725852       0.30005675E-01  -0.10384096E-02   0.12877466E-04    49050.000        4.0574321
  11797.168       0.28546068E-01  -0.49172030      -0.13070985       0.26926973E-01  -0.10257957E-02  -0.12384846E-04    49030.000        3.4344551
  11800.159       0.25255118E-01  -0.40992515      -0.13418441       0.23835229E-01  -0.11122481E-02  -0.73672324E-05    48927.500        2.8727728
  11803.168       0.21872580E-01  -0.33752970      -0.13767988       0.20732655E-01  -0.10699991E-02   0.12309828E-04    49028.571        2.3725366
  11806.196       0.18795533E-01  -0.27407695      -0.14119743       0.17618367E-01  -0.10379337E-02  -0.15399814E-05    48964.286        1.9333508
  11809.243       0.15567133E-01  -0.21911681      -0.14473704       0.14492511E-01  -0.10793545E-02  -0.15345711E-04    48811.250        1.5492285
  11812.309       0.12197439E-01  -0.17217667      -0.14829873       0.11355238E-01  -0.11317420E-02  -0.73792467E-05    48885.714        1.2171162
  11815.395       0.86046560E-02  -0.13274947      -0.15188365       0.82056788E-02  -0.11247516E-02   0.86884779E-05    48670.000       0.93312661
  11818.499       0.52352269E-02  -0.10034184      -0.15548948       0.50460266E-02  -0.10779603E-02   0.48222099E-05    48511.429       0.69695009
  11821.622       0.18921972E-02  -0.74397397E-01  -0.15911738       0.18754115E-02  -0.10947237E-02  -0.43668432E-05    48651.250       0.50361353
  11824.765      -0.16243119E-02  -0.54344265E-01  -0.16276852      -0.13070240E-02  -0.11053229E-02  -0.58643572E-05    48528.571       0.34802232
  11827.926      -0.50757587E-02  -0.39604259E-01  -0.16644056      -0.44991008E-02  -0.11316926E-02  -0.51834442E-05    48551.250       0.22793436
  11831.107      -0.88015065E-02  -0.29552046E-01  -0.17013584      -0.77026830E-02  -0.11381964E-02   0.33645494E-05    48342.500       0.13698136
  11834.307      -0.12338590E-01  -0.23551768E-01  -0.17385319      -0.10916603E-01  -0.11102234E-02   0.86313586E-05    47982.500       0.74021999E-01
  11837.525      -0.15926920E-01  -0.20936882E-01  -0.17759145      -0.14139704E-01  -0.10828003E-02   0.29826342E-05    48251.429       0.33072461E-01
  11840.763      -0.19329148E-01  -0.21013118E-01  -0.18135295      -0.17373831E-01  -0.10909675E-02  -0.94239787E-06    48323.750       0.11116459E-01
  11844.020      -0.23012755E-01  -0.23062620E-01  -0.18513651      -0.20617822E-01  -0.10889212E-02   0.28859276E-05    48062.500       0.32918116E-03
  11847.296      -0.26443070E-01  -0.26339504E-01  -0.18894215      -0.23871517E-01  -0.10721138E-02   0.64028492E-05    48131.250      -0.68367337E-03
  11850.591      -0.30057614E-01  -0.30070769E-01  -0.19276986      -0.27134754E-01  -0.10468480E-02   0.27554883E-04    48100.000       0.86837408E-04
  11853.904      -0.33360642E-01  -0.33455014E-01  -0.19661848      -0.30406387E-01  -0.89003111E-03   0.47040104E-04    47840.000       0.62297997E-03
  11856.659      -0.35458323E-01  -0.35404499E-01  -0.19981889      -0.33119785E-01  -0.76140869E-03   0.46686902E-04    47853.333      -0.35531271E-03
